{
  "resourceType": "Bundle",
  "id": "a4f1fd42-7ebd-40f6-8ea7-42fc600afd9f",
  "meta": {
    "lastUpdated": "2023-09-20T16:22:52.530+00:00"
  },
  "type": "searchset",
  "total": 711,
  "link": [
    {
      "relation": "self",
      "url": "https://fhir.labs.smartregister.org/fhir/Location/_search?_count=711&_total=accurate"
    }
  ],
  "entry": [
    {
      "resource": {
        "resourceType": "Location",
        "id": "2252",
        "meta": {
          "versionId": "3",
          "lastUpdated": "2021-10-14T13:10:14.524+00:00",
          "source": "#5887f723a045b500"
        },
        "identifier": [
          {
            "use": "official",
            "value": "eff94f33-c356-4634-8795-d52340706ba9"
          }
        ],
        "status": "active",
        "name": "Root FHIR Location",
        "alias": ["Root Location"],
        "description": "This is the Root Location that all other locations are part of. Any locations that are directly part of this should be displayed as the root location.",
        "physicalType": {
          "coding": [
            {
              "system": "http://terminology.hl7.org/CodeSystem/location-physical-type",
              "code": "jdn",
              "display": "Jurisdiction"
            }
          ]
        }
      },
      "fullUrl": "https://fhir.labs.smartregister.org/fhir/Location/2252",
      "search": {
        "mode": "match"
      }
    },
    {
      "resource": {
        "resourceType": "Location",
        "id": "303",
        "meta": {
          "versionId": "4",
          "lastUpdated": "2021-10-14T13:12:22.740+00:00",
          "source": "#13bbc7f09daa1751"
        },
        "identifier": [
          {
            "use": "official",
            "value": "93bc9c3d-6321-41b0-9b93-1275d7114e22"
          }
        ],
        "status": "active",
        "name": "Ona Office Sub Location",
        "alias": ["ona office"],
        "description": "The Sub location",
        "physicalType": {
          "coding": [
            {
              "system": "http://terminology.hl7.org/CodeSystem/location-physical-type",
              "code": "jdn",
              "display": "Jurisdiction"
            }
          ]
        },
        "partOf": {
          "reference": "Location/2252",
          "display": "Root FHIR Location"
        }
      },
      "fullUrl": "https://fhir.labs.smartregister.org/fhir/Location/303",
      "search": {
        "mode": "match"
      }
    },
    {
      "resource": {
        "resourceType": "Location",
        "id": "3700",
        "meta": {
          "versionId": "1",
          "lastUpdated": "2021-10-25T17:35:03.037+00:00",
          "source": "#29bc16483de49917"
        },
        "identifier": [
          {
            "use": "official",
            "value": "aefb6487-952f-43e0-890e-13bc49c66d7a"
          }
        ],
        "status": "active",
        "name": "Level 0",
        "alias": ["alias 0"],
        "description": "This is a test desc",
        "physicalType": {
          "coding": [
            {
              "system": "http://terminology.hl7.org/CodeSystem/location-physical-type",
              "code": "jdn",
              "display": "Jurisdiction"
            }
          ]
        },
        "partOf": {
          "reference": "Location/303",
          "display": "Ona Office Sub Location"
        }
      },
      "fullUrl": "https://fhir.labs.smartregister.org/fhir/Location/3700",
      "search": {
        "mode": "match"
      }
    },
    {
      "resource": {
        "resourceType": "Location",
        "id": "971",
        "meta": {
          "versionId": "15",
          "lastUpdated": "2021-10-22T13:59:17.824+00:00",
          "source": "#8c44090bcdecfecd"
        },
        "identifier": [
          {
            "use": "official",
            "value": "0f184aac-83e7-498e-8232-5c8b360ad97b"
          }
        ],
        "status": "active",
        "name": "Arundel mobile clinic",
        "alias": ["Part of you"],
        "description": "Vaccination Site",
        "physicalType": {
          "coding": [
            {
              "system": "http://terminology.hl7.org/CodeSystem/location-physical-type",
              "code": "jdn",
              "display": "Jurisdiction"
            }
          ]
        },
        "partOf": {
          "reference": "Location/303",
          "display": "Ona Office Sub Location"
        }
      },
      "fullUrl": "https://fhir.labs.smartregister.org/fhir/Location/971",
      "search": {
        "mode": "match"
      }
    },
    {
      "resource": {
        "resourceType": "Location",
        "id": "3453",
        "meta": {
          "versionId": "2",
          "lastUpdated": "2021-10-14T13:12:50.738+00:00",
          "source": "#ee7f951054c1498e"
        },
        "identifier": [
          {
            "use": "official",
            "value": "c3ff106e-91cb-4346-b45f-d7ad5346af5a"
          }
        ],
        "status": "active",
        "name": "Part Of Sub Location",
        "alias": ["part off"],
        "description": "Testing the part of ",
        "physicalType": {
          "coding": [
            {
              "system": "http://terminology.hl7.org/CodeSystem/location-physical-type",
              "code": "jdn",
              "display": "Jurisdiction"
            }
          ]
        },
        "partOf": {
          "reference": "Location/303",
          "display": "Ona Office Sub Location"
        }
      },
      "fullUrl": "https://fhir.labs.smartregister.org/fhir/Location/3453",
      "search": {
        "mode": "match"
      }
    },
    {
      "resource": {
        "resourceType": "Location",
        "id": "3698",
        "meta": {
          "versionId": "1",
          "lastUpdated": "2021-10-25T11:47:40.060+00:00",
          "source": "#7b5eb661a6a154a6"
        },
        "identifier": [
          {
            "use": "official",
            "value": "cef7b7fd-46cd-4975-bd47-b1a6d045dc3d"
          }
        ],
        "status": "active",
        "name": "Nairobii",
        "alias": ["Desc alias"],
        "description": "Desc",
        "physicalType": {
          "coding": [
            {
              "system": "http://terminology.hl7.org/CodeSystem/location-physical-type",
              "code": "jdn",
              "display": "Jurisdiction"
            }
          ]
        },
        "partOf": {
          "reference": "Location/3453",
          "display": "Part Of Sub Location"
        }
      },
      "fullUrl": "https://fhir.labs.smartregister.org/fhir/Location/3698",
      "search": {
        "mode": "match"
      }
    },
    {
      "resource": {
        "resourceType": "Location",
        "id": "3701",
        "meta": {
          "versionId": "1",
          "lastUpdated": "2021-10-25T17:39:30.390+00:00",
          "source": "#ed9c4d2c21507afc"
        },
        "identifier": [
          {
            "use": "official",
            "value": "b4bed6fc-35eb-4de1-ab3a-d7df5bf7f346"
          }
        ],
        "status": "active",
        "name": "Langata",
        "alias": ["langata alias"],
        "description": "langata desc",
        "physicalType": {
          "coding": [
            {
              "system": "http://terminology.hl7.org/CodeSystem/location-physical-type",
              "code": "jdn",
              "display": "Jurisdiction"
            }
          ]
        },
        "partOf": {
          "reference": "Location/3698",
          "display": "Nairobii"
        }
      },
      "fullUrl": "https://fhir.labs.smartregister.org/fhir/Location/3701",
      "search": {
        "mode": "match"
      }
    },
    {
      "resource": {
        "resourceType": "Location",
        "id": "3699",
        "meta": {
          "versionId": "1",
          "lastUpdated": "2021-10-25T12:13:50.248+00:00",
          "source": "#648444f01bec6b9e"
        },
        "identifier": [
          {
            "use": "official",
            "value": "6f7b3491-3651-4986-b5a7-befd3fbc9905"
          }
        ],
        "status": "active",
        "name": "Ngong",
        "alias": ["Ngongy"],
        "description": "Ngong Location",
        "physicalType": {
          "coding": [
            {
              "system": "http://terminology.hl7.org/CodeSystem/location-physical-type",
              "code": "jdn",
              "display": "Jurisdiction"
            }
          ]
        },
        "partOf": {
          "reference": "Location/3698",
          "display": "Nairobii"
        }
      },
      "fullUrl": "https://fhir.labs.smartregister.org/fhir/Location/3699",
      "search": {
        "mode": "match"
      }
    },
    {
      "resource": {
        "resourceType": "Location",
        "id": "3691",
        "meta": {
          "versionId": "8",
          "lastUpdated": "2021-10-25T09:25:24.653+00:00",
          "source": "#6d829f7729f539f0"
        },
        "identifier": [
          {
            "use": "official",
            "value": "4991bf8d-fdbd-48a5-8b02-75d57369573e"
          }
        ],
        "status": "active",
        "name": "Test Sub Loc",
        "alias": ["Test Sub"],
        "description": "The Test Sub Loc",
        "physicalType": {
          "coding": [
            {
              "system": "http://terminology.hl7.org/CodeSystem/location-physical-type",
              "code": "jdn",
              "display": "Jurisdiction"
            }
          ]
        },
        "partOf": {
          "reference": "Location/3453",
          "display": "Part Of Sub Location"
        }
      },
      "fullUrl": "https://fhir.labs.smartregister.org/fhir/Location/3691",
      "search": {
        "mode": "match"
      }
    },
    {
      "resource": {
        "resourceType": "Location",
        "id": "3752",
        "meta": {
          "versionId": "3",
          "lastUpdated": "2021-10-25T18:23:41.730+00:00",
          "source": "#e53fb49dd17be516"
        },
        "identifier": [
          {
            "use": "official",
            "value": "40d75934-2a30-4426-9100-912e3c3fc459"
          }
        ],
        "status": "active",
        "name": "Embakasiii",
        "alias": ["Emba"],
        "description": "Emba Desc",
        "physicalType": {
          "coding": [
            {
              "system": "http://terminology.hl7.org/CodeSystem/location-physical-type",
              "code": "jdn",
              "display": "Jurisdiction"
            }
          ]
        },
        "partOf": {
          "reference": "Location/3691",
          "display": "Test Sub Loc"
        }
      },
      "fullUrl": "https://fhir.labs.smartregister.org/fhir/Location/3752",
      "search": {
        "mode": "match"
      }
    },
    {
      "resource": {
        "resourceType": "Location",
        "id": "3590",
        "meta": {
          "versionId": "1",
          "lastUpdated": "2021-10-15T09:59:46.554+00:00",
          "source": "#bc4c70fa7e68ac36"
        },
        "identifier": [
          {
            "use": "official",
            "value": "9f7f985b-8226-4971-ae67-c3ef241cbe01"
          }
        ],
        "status": "active",
        "name": "Test Loc 113",
        "alias": ["113"],
        "description": "Desc",
        "physicalType": {
          "coding": [
            {
              "system": "http://terminology.hl7.org/CodeSystem/location-physical-type",
              "code": "jdn",
              "display": "Jurisdiction"
            }
          ]
        },
        "partOf": {
          "reference": "Location/3453",
          "display": "Part Of Sub Location"
        }
      },
      "fullUrl": "https://fhir.labs.smartregister.org/fhir/Location/3590",
      "search": {
        "mode": "match"
      }
    },
    {
      "resource": {
        "resourceType": "Location",
        "id": "739",
        "meta": {
          "versionId": "19",
          "lastUpdated": "2021-10-15T12:09:59.809+00:00",
          "source": "#68c24697322968a2"
        },
        "identifier": [
          {
            "use": "official",
            "value": "2829f50c-9189-43ee-8def-a775437c2f0b"
          }
        ],
        "status": "active",
        "name": "Test Loc 1145",
        "alias": ["ona officee"],
        "description": "This is a test",
        "physicalType": {
          "coding": [
            {
              "system": "http://terminology.hl7.org/CodeSystem/location-physical-type",
              "code": "jdn",
              "display": "Jurisdiction"
            }
          ]
        },
        "partOf": {
          "reference": "Location/3453",
          "display": "Part Of Sub Location"
        }
      },
      "fullUrl": "https://fhir.labs.smartregister.org/fhir/Location/739",
      "search": {
        "mode": "match"
      }
    },
    {
      "resource": {
        "resourceType": "Location",
        "id": "3464",
        "meta": {
          "versionId": "7",
          "lastUpdated": "2021-10-25T18:30:13.490+00:00",
          "source": "#a6eb7dc2fdf82484"
        },
        "identifier": [
          {
            "use": "official",
            "value": "f725bbe8-989d-4dd9-8346-d9630e813660"
          }
        ],
        "status": "active",
        "name": "MOH HQ 2",
        "alias": ["mohh"],
        "description": "HL7 Headquarters",
        "physicalType": {
          "coding": [
            {
              "system": "http://terminology.hl7.org/CodeSystem/location-physical-type",
              "code": "jdn",
              "display": "Jurisdiction"
            }
          ]
        },
        "partOf": {
          "reference": "Location/3453",
          "display": "Part Of Sub Location"
        }
      },
      "fullUrl": "https://fhir.labs.smartregister.org/fhir/Location/3464",
      "search": {
        "mode": "match"
      }
    },
    {
      "resource": {
        "resourceType": "Location",
        "id": "3753",
        "meta": {
          "versionId": "1",
          "lastUpdated": "2021-10-25T18:32:20.171+00:00",
          "source": "#00e92dd273348bed"
        },
        "identifier": [
          {
            "use": "official",
            "value": "fe124438-6c7f-4869-bd89-b3c0fd5703ee"
          }
        ],
        "status": "active",
        "name": "MOH Sub location",
        "alias": ["MOH Sub location"],
        "description": "MOH Sub location desc",
        "physicalType": {
          "coding": [
            {
              "system": "http://terminology.hl7.org/CodeSystem/location-physical-type",
              "code": "jdn",
              "display": "Jurisdiction"
            }
          ]
        },
        "partOf": {
          "reference": "Location/3464",
          "display": "MOH HQ 2"
        }
      },
      "fullUrl": "https://fhir.labs.smartregister.org/fhir/Location/3753",
      "search": {
        "mode": "match"
      }
    },
    {
      "resource": {
        "resourceType": "Location",
        "id": "3756",
        "meta": {
          "versionId": "1",
          "lastUpdated": "2021-10-26T07:46:41.904+00:00",
          "source": "#ce245f0bc54b347b"
        },
        "identifier": [
          {
            "use": "official",
            "value": "d8e58b43-141e-4b29-a789-81ab6677c2ba"
          }
        ],
        "status": "active",
        "name": "MOH SUB SUB LOCATION 1",
        "alias": ["MOH SUB SUB LOCATION 1"],
        "description": "MOH SUB SUB LOCATION 1",
        "physicalType": {
          "coding": [
            {
              "system": "http://terminology.hl7.org/CodeSystem/location-physical-type",
              "code": "jdn",
              "display": "Jurisdiction"
            }
          ]
        },
        "partOf": {
          "reference": "Location/3753",
          "display": "MOH Sub location"
        }
      },
      "fullUrl": "https://fhir.labs.smartregister.org/fhir/Location/3756",
      "search": {
        "mode": "match"
      }
    },
    {
      "resource": {
        "resourceType": "Location",
        "id": "3757",
        "meta": {
          "versionId": "1",
          "lastUpdated": "2021-10-26T07:48:19.889+00:00",
          "source": "#d11c67f354d91869"
        },
        "identifier": [
          {
            "use": "official",
            "value": "26401d5f-167a-4df8-a4b8-243add38779b"
          }
        ],
        "status": "active",
        "name": "MOH SUB SUB SUB LOCATION 1",
        "alias": ["MOH SUB SUB SUB LOCATION 1"],
        "description": "MOH SUB SUB SUB LOCATION 1",
        "physicalType": {
          "coding": [
            {
              "system": "http://terminology.hl7.org/CodeSystem/location-physical-type",
              "code": "jdn",
              "display": "Jurisdiction"
            }
          ]
        },
        "partOf": {
          "reference": "Location/3756",
          "display": "MOH SUB SUB LOCATION 1"
        }
      },
      "fullUrl": "https://fhir.labs.smartregister.org/fhir/Location/3757",
      "search": {
        "mode": "match"
      }
    },
    {
      "resource": {
        "resourceType": "Location",
        "id": "3754",
        "meta": {
          "versionId": "1",
          "lastUpdated": "2021-10-26T07:43:36.298+00:00",
          "source": "#18b051aedc5f2f73"
        },
        "identifier": [
          {
            "use": "official",
            "value": "e13e4c1c-d5c6-43e3-94b0-7efd3f2153c4"
          }
        ],
        "status": "active",
        "name": "MOH SUB SUB LOCATION",
        "alias": ["MOH SUB SUB LOCATION"],
        "description": "MOH SUB SUB LOCATION",
        "physicalType": {
          "coding": [
            {
              "system": "http://terminology.hl7.org/CodeSystem/location-physical-type",
              "code": "jdn",
              "display": "Jurisdiction"
            }
          ]
        },
        "partOf": {
          "reference": "Location/3753",
          "display": "MOH Sub location"
        }
      },
      "fullUrl": "https://fhir.labs.smartregister.org/fhir/Location/3754",
      "search": {
        "mode": "match"
      }
    },
    {
      "resource": {
        "resourceType": "Location",
        "id": "3755",
        "meta": {
          "versionId": "2",
          "lastUpdated": "2021-10-26T07:50:53.540+00:00",
          "source": "#5339f0868dd39478"
        },
        "identifier": [
          {
            "use": "official",
            "value": "08fd0492-c513-4814-8dca-b5d19feb79d1"
          }
        ],
        "status": "active",
        "name": "MOH HQ",
        "alias": ["MOH HQ"],
        "description": "MOH HQ",
        "physicalType": {
          "coding": [
            {
              "system": "http://terminology.hl7.org/CodeSystem/location-physical-type",
              "code": "jdn",
              "display": "Jurisdiction"
            }
          ]
        },
        "partOf": {
          "reference": "Location/3754",
          "display": "MOH SUB SUB LOCATION"
        }
      },
      "fullUrl": "https://fhir.labs.smartregister.org/fhir/Location/3755",
      "search": {
        "mode": "match"
      }
    },
    {
      "resource": {
        "resourceType": "Location",
        "id": "3773",
        "meta": {
          "versionId": "1",
          "lastUpdated": "2021-10-26T10:57:59.491+00:00",
          "source": "#10a430746e2909fd"
        },
        "identifier": [
          {
            "use": "official",
            "value": "baa79c00-1605-4a3a-bb51-856cee820a96"
          }
        ],
        "status": "active",
        "name": "MOH SUB LOCATION 1",
        "alias": ["MOH SUB LOCATION 1"],
        "description": "MOH SUB LOCATION 1",
        "physicalType": {
          "coding": [
            {
              "system": "http://terminology.hl7.org/CodeSystem/location-physical-type",
              "code": "jdn",
              "display": "Jurisdiction"
            }
          ]
        },
        "partOf": {
          "reference": "Location/3755",
          "display": "MOH HQ"
        }
      },
      "fullUrl": "https://fhir.labs.smartregister.org/fhir/Location/3773",
      "search": {
        "mode": "match"
      }
    },
    {
      "resource": {
        "resourceType": "Location",
        "id": "3774",
        "meta": {
          "versionId": "1",
          "lastUpdated": "2021-10-26T10:59:20.719+00:00",
          "source": "#03c5b06d6f5c392c"
        },
        "identifier": [
          {
            "use": "official",
            "value": "4e6a37e9-d832-42f8-b019-cd5a951f385d"
          }
        ],
        "status": "active",
        "name": "MOH SUB SUB LOCATION 1",
        "alias": ["MOH SUB SUB LOCATION 1"],
        "description": "MOH SUB SUB LOCATION 1",
        "physicalType": {
          "coding": [
            {
              "system": "http://terminology.hl7.org/CodeSystem/location-physical-type",
              "code": "jdn",
              "display": "Jurisdiction"
            }
          ]
        },
        "partOf": {
          "reference": "Location/3773",
          "display": "MOH SUB LOCATION 1"
        }
      },
      "fullUrl": "https://fhir.labs.smartregister.org/fhir/Location/3774",
      "search": {
        "mode": "match"
      }
    },
    {
      "resource": {
        "resourceType": "Location",
        "id": "3758",
        "meta": {
          "versionId": "1",
          "lastUpdated": "2021-10-26T08:21:48.281+00:00",
          "source": "#fb1ac76193a49328"
        },
        "identifier": [
          {
            "use": "official",
            "value": "60eb5ec3-0800-4cb1-b316-2c8ca996db2d"
          }
        ],
        "status": "active",
        "name": "MOH SUB LOCATION",
        "alias": ["MOH SUB LOCATION"],
        "description": "MOH SUB LOCATION",
        "physicalType": {
          "coding": [
            {
              "system": "http://terminology.hl7.org/CodeSystem/location-physical-type",
              "code": "jdn",
              "display": "Jurisdiction"
            }
          ]
        },
        "partOf": {
          "reference": "Location/3755",
          "display": "MOH HQ"
        }
      },
      "fullUrl": "https://fhir.labs.smartregister.org/fhir/Location/3758",
      "search": {
        "mode": "match"
      }
    },
    {
      "resource": {
        "resourceType": "Location",
        "id": "3772",
        "meta": {
          "versionId": "1",
          "lastUpdated": "2021-10-26T10:56:51.495+00:00",
          "source": "#8dec0ad9b4b20d3c"
        },
        "identifier": [
          {
            "use": "official",
            "value": "adba8456-6bdd-470e-a056-ece49867f60e"
          }
        ],
        "status": "active",
        "name": "MOH SUB SUB LOCATION",
        "alias": ["MOH SUB SUB LOCATION"],
        "description": "MOH SUB SUB LOCATION",
        "physicalType": {
          "coding": [
            {
              "system": "http://terminology.hl7.org/CodeSystem/location-physical-type",
              "code": "jdn",
              "display": "Jurisdiction"
            }
          ]
        },
        "partOf": {
          "reference": "Location/3758",
          "display": "MOH SUB LOCATION"
        }
      },
      "fullUrl": "https://fhir.labs.smartregister.org/fhir/Location/3772",
      "search": {
        "mode": "match"
      }
    },
    {
      "resource": {
        "resourceType": "Location",
        "id": "3775",
        "meta": {
          "versionId": "1",
          "lastUpdated": "2021-10-26T11:32:51.171+00:00",
          "source": "#55d61406a3186f08"
        },
        "identifier": [
          {
            "use": "official",
            "value": "58d49744-bb61-47b4-990e-c4b88e7aa1c6"
          }
        ],
        "status": "active",
        "name": "MOH SUB SUB SUB LOCATION",
        "alias": ["MOH SUB SUB SUB LOCATION"],
        "description": "MOH SUB SUB SUB LOCATION",
        "physicalType": {
          "coding": [
            {
              "system": "http://terminology.hl7.org/CodeSystem/location-physical-type",
              "code": "jdn",
              "display": "Jurisdiction"
            }
          ]
        },
        "partOf": {
          "reference": "Location/3772",
          "display": "MOH SUB SUB LOCATION"
        }
      },
      "fullUrl": "https://fhir.labs.smartregister.org/fhir/Location/3775",
      "search": {
        "mode": "match"
      }
    },
    {
      "resource": {
        "resourceType": "Location",
        "id": "3776",
        "meta": {
          "versionId": "1",
          "lastUpdated": "2021-10-26T11:40:02.091+00:00",
          "source": "#3b9b650a82a1ebf0"
        },
        "identifier": [
          {
            "use": "official",
            "value": "1815f774-c85b-4bb1-825d-f6af11753d08"
          }
        ],
        "status": "active",
        "name": "MOH SUB SUB SUB LOCATION 1",
        "alias": ["MOH SUB SUB SUB LOCATION 1"],
        "description": "MOH SUB SUB SUB LOCATION 1",
        "physicalType": {
          "coding": [
            {
              "system": "http://terminology.hl7.org/CodeSystem/location-physical-type",
              "code": "jdn",
              "display": "Jurisdiction"
            }
          ]
        },
        "partOf": {
          "reference": "Location/3775",
          "display": "MOH SUB SUB SUB LOCATION"
        }
      },
      "fullUrl": "https://fhir.labs.smartregister.org/fhir/Location/3776",
      "search": {
        "mode": "match"
      }
    }
  ]
}
